Folder: fibrobot/tensileTest/data

Note: tensileTest/data/readme.txt
File:
tensile_comp_2021-01-29-12-32-25_force.csv
tensile_comp_2021-01-29-12-32-25_displacement.csv

Description:
Calibration data from FibRobot

---

File:
Test2_2021-01-29.csv

Description:
Calibration data from reference load cell

---

File:
tensile_comp_2021-02-15-12-39-24_force.csv
tensile_comp_2021-02-15-12-39-24_displacement.csv

Description:
Sample data from tensile test to see calibrated response

File: tensile_comp_2021-01-29-12-32-25_displacement.csv
time (s),motor position (nm),sensor position (nm)
0.0810198,0,0
3.23265,220718,-944
3.36747,1581135,1192
3.50245,2929059,-272
3.63748,4272876,-1101
3.77241,5629779,1766
3.90748,6979965,1089
4.0428,8326633,499
4.17771,9679004,461
4.31247,11030425,859
4.4475,12378492,1357
4.58248,13610894,852
4.71744,15080217,352
4.85264,16429987,-1367
4.98761,17772570,1897
5.12244,19128940,-457
5.25759,20480212,1490
5.39239,21827373,951
5.52753,23175669,-774
5.66243,24530446,1799
5.79772,25879090,531
5.93265,27186864,2477
6.06741,28579704,4008
6.20243,29930743,3841
6.33752,31276030,4329
6.47252,32628638,3568
6.60745,33980765,4206
6.74266,35328878,4347
6.87764,36505768,4498
7.01267,38029338,4863
7.14748,39380624,4234
7.28255,40725560,3895
7.41751,42078829,2651
7.55267,43431096,3800
7.6875,44778762,2782
7.82269,45949628,3339
7.95755,47479189,4898
8.09267,48829828,2972
8.22772,50173980,4748
8.36249,51528772,5521
8.49752,52880533,3398
8.63272,54228726,4571
8.76749,55539624,5122
8.90249,56930408,-39845
9.03758,58279541,155570
9.17249,59624724,299233
9.30768,60978546,417022
9.44244,62330608,337142
9.57763,63679120,285462
9.71278,64981658,281342
9.84757,66380668,280463
9.98267,67728054,251551
10.1178,69072268,151396
10.2524,70430458,132991
10.3875,71781090,140539
10.5225,73129567,141087
10.6575,74437125,135772
10.7927,75830601,-230396
10.9276,77180392,549513
11.0626,78522309,23387
11.1977,79880243,1277416
11.3325,81230960,5551256
11.4675,82577894,10963001
11.6025,83893379,12765147
11.7376,85281002,12752256
11.8726,86630101,12744714
12.0076,87969762,12738229
12.1424,89329426,12734043
12.2776,90680257,16577669
12.4126,92027431,22196732
12.5476,93376778,27586106
12.6827,94730404,33139484
12.8175,96079804,38837217
12.9526,97410418,42557782
13.0874,98779115,44134658
13.2225,100130979,47690746
13.3575,101477039,51431088
13.4925,102829488,55297099
13.6275,104180598,58920436
13.7625,105530390,62414547
13.8975,106787740,62368417
14.0327,108230169,62330160
14.1678,109580878,62297193
14.3026,110926345,62265900
14.4375,112279746,62235343
14.5725,113631796,62202743
14.7075,114979323,62173926
14.8425,116288020,62145645
14.9776,117680646,62118368
15.1128,119030544,62093945
15.2476,120372864,62067987
15.3828,121730725,62045855
15.5178,123081244,62024061
15.6526,124427836,62001938
15.7877,125779256,61980872
15.9226,127131293,61961061
16.0575,128479765,61942689
16.1927,129715800,61922994
16.3274,131180945,61905251
16.4628,132530662,61888473
16.5977,133875162,60114045
16.733,135231251,53931530
16.8678,136581643,41283163
17.0026,137925677,20733156
17.1376,139277760,10096852
17.2726,140632532,620055
17.4075,141979359,-510964
17.5426,143221528,629119
17.6776,144681320,434022
17.8126,146030506,427418
17.9476,147370026,428899
18.0827,148730673,427972
18.2176,150080599,428587
18.3528,151426721,427845
18.4876,152781213,427102
18.6226,154131641,427373
18.7576,155478536,428485
18.8925,156825877,426440
19.0275,158181062,426317
19.1627,159529037,427417
19.2975,160816819,427174
19.4324,162230068,427761
19.5678,163581257,426818
19.7028,164923529,424896
19.8375,166281545,425493
19.9727,167630449,424771
20.1076,168976756,425400
20.2427,170330138,425096
20.3776,171679959,273429
20.5126,173028014,-354122
20.6478,174377770,330938
20.7825,175731020,170826
20.9176,177079485,3274973
21.0528,178270511,8606335
21.1877,179780524,16136003
21.3227,181130646,18036197
21.4575,182467533,18017301
21.5926,183831539,18008344
21.7276,185181359,18000542
21.8626,186525265,21647824
21.9976,187882589,30253222
22.1327,189232023,39914058
22.2675,190576518,41934178
22.4027,191929111,43610680
22.5377,193282826,45396278
22.6727,194629461,45373978
22.8078,195961428,45354348
22.9428,197331805,45334383
23.0777,198680665,45314838
23.2128,199988904,45297539
23.3475,201379971,45280948
23.4827,202731240,45264330
23.6175,204074008,45249939
23.7526,205431745,45234518
23.8875,206781191,45222499
24.0226,208127289,45210012
24.1577,209479413,45198944
24.2928,210831101,45189735
24.4277,212179157,45177861
24.5628,213510267,45168281
24.6979,214882539,45159284
24.8327,216229698,45151487
24.9678,217524661,45141478
25.1026,218931670,45134129
25.2378,220281088,45126946
25.3729,221624684,45118102
25.5076,222980859,45112040
25.6425,224332667,45105069
25.7778,225677828,45097695
25.9125,227029826,45089010
26.0475,228380685,45084081
26.1825,229729290,43185174
26.3176,230864530,35782319
26.4528,232430013,26356430
26.5878,233781564,13585492
26.7227,235119097,3070425
26.8576,236483754,518614
26.9927,237831251,366564
27.1276,239177187,375569
27.2626,240531071,375052
27.3978,241882397,372903
27.5326,243230958,-22739
27.6679,244537854,1140208
27.8026,245931438,366177
27.9376,247281410,207764
28.0728,248606779,206174
28.2078,249982092,206554
28.3429,251331471,207552
28.4777,252676623,206803
28.6127,254031134,205613
28.7476,255382744,206882
28.8826,256730013,205930
29.0177,258057734,206863
29.1526,259431223,206550
29.2876,260781011,207750
29.4229,262113109,205633
29.5575,263481352,204791
29.6928,264832791,206533
29.8278,266176802,204818
29.9627,267531072,203920
30.0977,268882408,205866
30.2328,270229867,205555
30.3676,271550141,206100
30.5026,272932021,206253
30.6377,274282560,-255535
30.7728,275612697,90542
30.9077,276982160,-387163
31.0426,278330909,143632
31.1776,279676286,255878
31.3126,281030280,249466
31.4479,282382367,250526
31.5826,283729754,253528
31.7176,284903243,5050844
31.8527,286431899,8565833
31.9877,287782371,14148202
32.1228,289120393,19801842
32.2578,290482135,26384751
32.3926,291832002,30680884
32.5278,293178083,36374889
32.6627,294529848,40069695
32.7977,295882162,41785196
32.9327,297229670,43525303
33.0676,298468188,45255516
33.2027,299932508,47208019
33.3378,301282177,48897056
33.4731,302624803,52781255
33.6078,303981826,54617763
33.7426,305331549,56413100
33.8778,306680241,58256624
34.0127,308029152,60031948
34.1478,309381952,61768566
34.2826,310731297,61751553
34.4178,312052241,61727966
34.5527,313431695,61707355
34.6876,314782435,61685661
34.8227,316126541,61662736
34.9576,317480874,61641384
35.0927,318832609,61619696
35.2277,320180020,61600204
35.3627,321300984,61583427
35.4977,322881656,61564646
35.6327,324231839,61546876
35.7677,325573786,61528789
35.9026,326931592,61512924
36.0376,328281697,61497315
36.1728,329629092,61480677
36.3077,330980842,61465848
36.4427,332331434,61451683
36.5775,333680592,61437283
36.7127,334928093,59603153
36.8477,336380151,52069639
36.9825,337731083,43976975
37.1176,339075632,35371711
37.2534,340431662,24174361
37.3876,341782786,9419535
37.5226,343129128,664404
37.6576,344458999,341120
37.7926,345832665,364600
37.9278,347180856,1009965
38.0626,348505991,285492
38.1976,349881774,345771
38.3327,351231664,332799
38.4676,352578211,332011
38.6028,353933000,570528
38.7377,355282079,804746
38.8726,356630839,929765
39.0076,357781000,299659
39.1428,359332604,292859
39.2776,360682339,295386
39.4127,362023826,296453
39.5478,363381812,294662
39.6828,364732832,295122
39.8178,366079173,294465
39.9526,367431130,294655
40.0875,368781797,296167
40.2226,370131509,295309
40.3576,371350177,265968
40.4926,372832440,319656
40.6276,374180072,411694
40.7627,375524601,319177
40.8976,376890082,277683
41.0326,378232858,127260
41.1677,379579794,62085
41.3026,380929542,65428
41.4379,382282658,63779
41.5728,383631727,62968
41.7078,384922529,63648
41.8428,386332182,65632
41.9776,387682828,65994
42.1126,389026242,65276
42.2479,390381658,65509
42.3828,391732197,65299
42.5176,393079686,64632
42.6528,394428185,63175
43.8294,395157644,66027
45.3297,395158694,63713